Folder: ElectrochromismFigures/data

Note: data/CollectCIESpace_rois.txt
408	253	20	20
380	222	20	20
342	180	20	20

Note: data/plot_correlation.txt
Abs at 570 nm	Mean L*
0.249	44.011
0.472	23.788
0.278	46.198
0.403	30.196
0.253	48.461
0.439	26.477

Note: data/plot_rate_constants_voltage.txt
0.11500063
0.12029616
0.08706486
0.12566755

Note: data/plot_thickness_pedot.txt
80	348.54	41.3672
60	795.32	20.09073
40	2604.8	41.33207
30	3121.2	39.43653
20	3740.4	107.4703

Note: data/plot_thickness_rpm.txt
500	5619	95.72617197
750	4368	72.11033213
1000	3832.2	39.49227773
2000	2856.2	37.55848772
3000	2627.2	64.63930693
4000	1831.2	51.92147918
5000	2199.4	57.51921418

Note: data/plot_timecourse.txt
Number	Time [sec]	Abs at 570 nm	Mean L*
1	0	0.514	17.956
2	20	0.287	42.205
3	40	0.272	42.202
4	60	0.26	45.653
5	60	0.257	45.668
6	80	0.415	24.934
7	100	0.415	18.689
8	120	0.444	17.943

Note: README.md
# How to use

- Run `luigid` first.
- Then, run `main.py` to execute Luigi tasks, which will generate pdf files in `dist` folder.

This still depends on some external csv files.

# Required libraries

* numpy
* scipy
* matplotlib
* Luigi

# Organization of source code

Written in Python. All source code is in `src` folder.
Some .py files have test code.

"For old data" means that it uses data for the first submission.

* calibration\_with\_colorchart.py

Input: `data/kinetics/colorchart`
Output: `data/kinetics/correction`

Use previously color chart L values to calculate brightness correction factors for PEDOT/PU films.
Color chart values and raw brightness values are calculated separately in advance.


* compare\_uvvis\_cielab.py

Correspondence between L values and absorption for a revised manuscript.

* data\_tools.py
* figure\_tools.py
* image\_tools.py
* luigi\_tools.py
* util.py

Utility functions

* kinetics\_manual\_fitting.py

Manual fitting of corrected L values to first-order reactions

* main.py

Entry point for all plotting. Not updated to the latest as of  November 29.

* make\_slices.py

Provides `mk_slices` function to make png slices from .mov files.
Since Scipy cannot open .mov files, this makes input files for later steps.

* measure\_100cycles.py

_Need to be updated to use the latest version of analysis._

100 cycle measurement of the first submission.

* measure\_and\_plot\_ox\_current.py

Plotting of oxdation current from CV.

* measure\_cie\_space.py

Spatial propagation of oxidation by L values.

* measure\_colorchart.py

Measure Lab color values of color chart with specified ROIs.

* measure\_kinetics\_revision.py

Measure rate constants with new data set.

* pedot\_voltage\_conditions.py

(For old data) Curve fitting of temporal color change.

* plot\_100cycles.py

(For old data) 100 cycles repeating.

* plot\_amperometry.py

(NOT used) Plotting amperometry data.

* plot\_cv.py

Plotting CV.

* plot\_final\_colors.py

Plotting final colors.

* plot\_kinetics.py

(For old data) Plotting kinetics.

* plot\_kinetics.py

(For new data) Plotting kinetics.

* plot\_kinetics\_space.py

(For old data) Plotting spatial propagation of kinetics.

* plot\_thickness.py

Plotting thickness of film. For both old and new data.

* plot\_uvvis\_lab\_timecourse.py

Plotting UV-Vis and L value over time as well as corrlation between them.

* tensile\_test.py

Plotting tensile testing.

* test\_calibration.py

Testing calibration with a color chart.

File: 20161026 tensile testing.csv
Run number,Sample number,æ¸¬å®_æ™‚åˆ»,ä_œè£_,PEDOT [wt%],Spin coating [rpm],å_… [mm],å_… [mm],å_… å__åù‡ [mm],é•·ãÅ• [mm],é•·ãÅ• [mm],é•·ãÅ• å__åù‡ [mm],è†œå__ [um],å‚™è€ƒ,è†œå__ãÅ¯10/19--æ¸¬å®_
1,N/A,,Jul-16,30,2000,,,12.65,,,13.35,2835,ç·´ç¿’ç”¨,
2,N/A,,Jul-16,30,2000,,,8.7,,,14.3,2835,ç·´ç¿’ç”¨,
3,101,15:57,Oct-16,40,500,,,10.1,,,12.75,4411,,
4,102,,,40,500,10.65,10.6,10.625,11.4,11.3,11.35,4411,,
5,103,,,40,500,11.2,11.6,11.4,8.8,9.15,8.975,4411,"ç›®æ¨™å_…15 mm, é•·ãÅ•10 mm",
6,111,,,30,500,12.02,12.18,12.1,9.1,8.95,9.025,5214,,
7,112,,,30,500,15.2,14.9,15.05,9.25,9.3,9.275,5214,,
8,113,16:58,,30,500,14.73,14.76,14.745,11.2,11.11,11.155,5214,,
,"114,115 skip",,,,,,,,,,,,,
9,116,17:07,,30,2000,15.2,15.45,15.325,9.75,9.35,9.55,2835,,
10,117,17:17,,30,2000,15.26,14.57,14.915,8.07,7.87,7.97,2835,,
11,118,,,30,2000,13.37,13.21,13.29,8.24,7.72,7.98,2835,,
,"119,120 skip",,,,,,,,,,,,,
,"121,122 skip",,,,,,,,,,,,,
12,123,17:44,,20,500,13.1,13.2,13.15,9.2,8.5,8.85,6434,,
13,124,,,20,500,13.72,13.04,13.38,11.29,11.45,11.37,6434,,
14,125,18:40,,20,500,15.74,16.56,16.15,10.59,10.05,10.32,6434,,
15,126,19:02,,20,2000,8.45,8.05,8.25,11.65,11.55,11.6,3256,,
16,127,,,20,2000,14.64,15.51,15.075,12.27,11.67,11.97,3256,,
,"128,129 skip",,,,,,,,,,,,,
17,130,19:42,,20,2000,15.48,15.01,15.245,14.15,13.9,14.025,3256,,
18,106,,,40,2000,12.01,11.91,11.96,8.76,8.58,8.67,2400,,
19,107,,,40,2000,13.3,12.9,13.1,9.35,9.4,9.375,2400,,
20,108,,,40,2000,13.45,13.79,13.62,7.97,7.66,7.815,2400,,
,"109,110 skip",,,,,,,,,,,,,