Folder: ElectrochromismFigures/data/cv

Note: README.md
# How to use

- Run `luigid` first.
- Then, run `main.py` to execute Luigi tasks, which will generate pdf files in `dist` folder.

This still depends on some external csv files.

# Required libraries

* numpy
* scipy
* matplotlib
* Luigi

# Organization of source code

Written in Python. All source code is in `src` folder.
Some .py files have test code.

"For old data" means that it uses data for the first submission.

* calibration\_with\_colorchart.py

Input: `data/kinetics/colorchart`
Output: `data/kinetics/correction`

Use previously color chart L values to calculate brightness correction factors for PEDOT/PU films.
Color chart values and raw brightness values are calculated separately in advance.


* compare\_uvvis\_cielab.py

Correspondence between L values and absorption for a revised manuscript.

* data\_tools.py
* figure\_tools.py
* image\_tools.py
* luigi\_tools.py
* util.py

Utility functions

* kinetics\_manual\_fitting.py

Manual fitting of corrected L values to first-order reactions

* main.py

Entry point for all plotting. Not updated to the latest as of  November 29.

* make\_slices.py

Provides `mk_slices` function to make png slices from .mov files.
Since Scipy cannot open .mov files, this makes input files for later steps.

* measure\_100cycles.py

_Need to be updated to use the latest version of analysis._

100 cycle measurement of the first submission.

* measure\_and\_plot\_ox\_current.py

Plotting of oxdation current from CV.

* measure\_cie\_space.py

Spatial propagation of oxidation by L values.

* measure\_colorchart.py

Measure Lab color values of color chart with specified ROIs.

* measure\_kinetics\_revision.py

Measure rate constants with new data set.

* pedot\_voltage\_conditions.py

(For old data) Curve fitting of temporal color change.

* plot\_100cycles.py

(For old data) 100 cycles repeating.

* plot\_amperometry.py

(NOT used) Plotting amperometry data.

* plot\_cv.py

Plotting CV.

* plot\_final\_colors.py

Plotting final colors.

* plot\_kinetics.py

(For old data) Plotting kinetics.

* plot\_kinetics.py

(For new data) Plotting kinetics.

* plot\_kinetics\_space.py

(For old data) Plotting spatial propagation of kinetics.

* plot\_thickness.py

Plotting thickness of film. For both old and new data.

* plot\_uvvis\_lab\_timecourse.py

Plotting UV-Vis and L value over time as well as corrlation between them.

* tensile\_test.py

Plotting tensile testing.

* test\_calibration.py

Testing calibration with a color chart.

File: 500 rpm CV.txt
June 22, 2016   14:10:00
Cyclic Voltammetry
File: c:\users\potentio2\desktop\suda\20160622\500 rpm cv.txt
Data Source:  Experiment
Instrument Model:  CHI7082E
Header:
Note:

Init E (V) = 0
High E (V) = 0.9
Low E (V) = -0.6
Init P/N = P
Scan Rate (V/s) = 0.01
Segment = 6
Sample Interval (V) = 0.001
Quiet Time (sec) = 2
Sensitivity (A/V) = 0.001
Sens 2 (A/V) = 0.001

Segment 1:
Ep = 0.268V
ip = 6.363e-8A
Ah = 1.339e-7C

Segment 2:

Segment 3:
Ep = 0.151V
ip = 1.972e-5A
Ah = 1.375e-4C

Segment 4:

Segment 5:
Ep = 0.159V
ip = 2.328e-5A
Ah = 1.688e-4C

Segment 6:

Current 2:

Segment 1:

Segment 2:
Ep = -0.405V
ip = -4.335e-8A
Ah = -1.163e-7C

Segment 3:
Segment 4:

Segment 5:
Segment 6:

Potential/V	i1/A	i2/A

0.000	-2.727e-5	-7.586e-6
0.028	1.341e-5	-7.548e-6
0.056	2.128e-5	-7.558e-6
0.084	2.369e-5	-7.577e-6
0.112	2.439e-5	-7.577e-6
0.140	2.473e-5	-7.597e-6
0.168	2.479e-5	-7.607e-6
0.196	2.488e-5	-7.607e-6
0.224	2.491e-5	-7.608e-6
0.252	2.500e-5	-7.610e-6
0.280	2.499e-5	-7.611e-6
0.308	2.510e-5	-7.621e-6
0.336	2.496e-5	-7.637e-6
0.364	2.489e-5	-7.640e-6
0.392	2.481e-5	-7.627e-6
0.420	2.490e-5	-7.628e-6
0.448	2.497e-5	-7.638e-6
0.476	2.517e-5	-7.646e-6
0.504	2.531e-5	-7.646e-6
0.532	2.592e-5	-7.630e-6
0.560	2.654e-5	-7.641e-6
0.588	2.764e-5	-7.648e-6
0.616	2.946e-5	-7.655e-6
0.644	3.147e-5	-7.631e-6
0.672	3.373e-5	-7.643e-6
0.700	3.632e-5	-7.643e-6
0.728	3.941e-5	-7.653e-6
0.756	4.333e-5	-7.654e-6
0.784	4.841e-5	-7.664e-6
0.812	5.551e-5	-7.662e-6
0.840	5.946e-5	-7.665e-6
0.868	6.805e-5	-7.678e-6
0.896	7.792e-5	-7.648e-6
0.876	2.233e-5	-7.675e-6
0.848	1.350e-5	-7.664e-6
0.820	8.660e-6	-7.668e-6
0.792	7.079e-6	-7.668e-6
0.764	2.003e-6	-7.657e-6
0.736	-4.770e-6	-7.664e-6
0.708	-7.088e-6	-7.651e-6
0.680	-7.720e-6	-7.650e-6
0.652	-9.467e-6	-7.751e-6
0.624	-1.037e-5	-7.750e-6
0.596	-1.080e-5	-7.760e-6
0.568	-1.172e-5	-7.748e-6
0.540	-1.196e-5	-7.761e-6
0.512	-1.309e-5	-7.746e-6
0.484	-1.362e-5	-7.752e-6
0.456	-1.400e-5	-7.758e-6
0.428	-1.445e-5	-7.751e-6
0.400	-1.486e-5	-7.748e-6
0.372	-1.519e-5	-7.752e-6
0.344	-1.534e-5	-7.756e-6
0.316	-1.552e-5	-7.754e-6
0.288	-1.583e-5	-7.758e-6
0.260	-1.625e-5	-7.758e-6
0.232	-1.671e-5	-7.751e-6
0.204	-1.733e-5	-7.741e-6
0.176	-1.773e-5	-7.746e-6
0.148	-1.841e-5	-7.748e-6
0.120	-1.897e-5	-7.747e-6
0.092	-1.971e-5	-7.757e-6
0.064	-2.028e-5	-7.746e-6
0.036	-2.098e-5	-7.743e-6
0.008	-2.142e-5	-7.742e-6
-0.020	-2.181e-5	-7.750e-6
-0.048	-2.187e-5	-7.750e-6
-0.076	-2.183e-5	-7.759e-6
-0.104	-2.180e-5	-7.749e-6
-0.132	-2.231e-5	-7.750e-6
-0.160	-2.369e-5	-7.743e-6
-0.188	-2.672e-5	-7.742e-6
-0.216	-3.165e-5	-7.759e-6
-0.244	-3.880e-5	-7.746e-6
-0.272	-4.762e-5	-7.725e-6
-0.300	-5.723e-5	-7.744e-6
-0.328	-6.643e-5	-7.734e-6
-0.356	-7.483e-5	-7.736e-6
-0.384	-8.281e-5	-7.731e-6
-0.412	-9.094e-5	-7.773e-6
-0.440	-9.893e-5	-7.753e-6
-0.468	-1.067e-4	-7.739e-6
-0.496	-1.139e-4	-7.745e-6
-0.524	-1.203e-4	-7.741e-6
-0.552	-1.255e-4	-7.727e-6
-0.580	-1.298e-4	-7.754e-6
-0.592	-1.071e-4	-7.736e-6
-0.564	-7.121e-5	-7.726e-6
-0.536	-5.042e-5	-7.739e-6
-0.508	-3.553e-5	-7.731e-6
-0.480	-2.407e-5	-7.747e-6
-0.452	-1.475e-5	-7.752e-6
-0.424	-7.022e-6	-7.663e-6
-0.396	-2.803e-7	-7.673e-6
-0.368	5.354e-6	-7.699e-6
-0.340	1.043e-5	-7.691e-6
-0.312	1.471e-5	-7.687e-6
-0.284	1.832e-5	-7.687e-6
-0.256	2.136e-5	-7.677e-6
-0.228	2.396e-5	-7.697e-6
-0.200	2.587e-5	-7.698e-6
-0.172	2.753e-5	-7.700e-6
-0.144	2.871e-5	-7.709e-6
-0.116	2.947e-5	-7.714e-6
-0.088	3.019e-5	-7.701e-6
-0.060	3.102e-5	-7.681e-6
-0.032	3.179e-5	-7.700e-6
-0.004	3.289e-5	-7.680e-6
0.024	3.496e-5	-7.682e-6
0.052	3.834e-5	-7.687e-6
0.080	4.310e-5	-7.691e-6
0.108	4.895e-5	-7.703e-6
0.136	5.481e-5	-7.697e-6
0.164	5.487e-5	-7.696e-6
0.192	4.664e-5	-7.700e-6
0.220	4.023e-5	-7.691e-6
0.248	3.754e-5	-7.691e-6
0.276	3.620e-5	-7.674e-6
0.304	3.523e-5	-7.689e-6
0.332	3.474e-5	-7.686e-6
0.360	3.397e-5	-7.686e-6
0.388	3.343e-5	-7.686e-6
0.416	3.296e-5	-7.679e-6
0.444	3.262e-5	-7.674e-6
0.472	3.243e-5	-7.678e-6
0.500	3.264e-5	-7.672e-6
0.528	3.298e-5	-7.675e-6
0.556	3.405e-5	-7.680e-6
0.584	3.552e-5	-7.684e-6
0.612	3.800e-5	-7.686e-6
0.640	4.084e-5	-7.682e-6
0.668	4.372e-5	-7.696e-6
0.696	4.613e-5	-7.691e-6
0.724	4.871e-5	-7.698e-6
0.752	5.144e-5	-7.686e-6
0.780	5.468e-5	-7.696e-6
0.808	5.840e-5	-7.706e-6
0.836	6.302e-5	-7.700e-6
0.864	6.852e-5	-7.712e-6
0.892	7.685e-5	-7.675e-6
0.880	2.593e-5	-7.715e-6
0.852	1.279e-5	-7.703e-6
0.824	7.350e-6	-7.694e-6
0.796	5.204e-6	-7.703e-6
0.768	4.366e-6	-7.700e-6
0.740	3.391e-6	-7.705e-6
0.712	3.075e-6	-7.696e-6
0.684	2.677e-6	-7.700e-6
0.656	-6.118e-6	-7.703e-6
0.628	-8.888e-6	-7.736e-6
0.600	-1.001e-5	-7.781e-6
0.572	-1.097e-5	-7.779e-6
0.544	-1.130e-5	-7.785e-6
0.516	-1.253e-5	-7.771e-6
0.488	-1.333e-5	-7.773e-6
0.460	-1.411e-5	-7.778e-6
0.432	-1.471e-5	-7.769e-6
0.404	-1.549e-5	-7.763e-6
0.376	-1.605e-5	-7.763e-6
0.348	-1.643e-5	-7.772e-6
0.320	-1.637e-5	-7.764e-6
0.292	-1.644e-5	-7.769e-6
0.264	-1.663e-5	-7.766e-6
0.236	-1.705e-5	-7.767e-6
0.208	-1.747e-5	-7.770e-6
0.180	-1.813e-5	-7.771e-6
0.152	-1.870e-5	-7.771e-6
0.124	-1.937e-5	-7.774e-6
0.096	-2.005e-5	-7.772e-6
0.068	-2.072e-5	-7.775e-6
0.040	-2.127e-5	-7.763e-6
0.012	-2.169e-5	-7.760e-6
-0.016	-2.189e-5	-7.770e-6
-0.044	-2.180e-5	-7.766e-6
-0.072	-2.141e-5	-7.771e-6
-0.100	-2.097e-5	-7.769e-6
-0.128	-2.073e-5	-7.773e-6
-0.156	-2.113e-5	-7.770e-6
-0.184	-2.255e-5	-7.760e-6
-0.212	-2.533e-5	-7.756e-6
-0.240	-2.946e-5	-7.776e-6
-0.268	-3.473e-5	-7.771e-6
-0.296	-4.056e-5	-7.748e-6
-0.324	-4.681e-5	-7.751e-6
-0.352	-5.322e-5	-7.779e-6
-0.380	-6.043e-5	-7.769e-6
-0.408	-6.816e-5	-7.760e-6
-0.436	-7.650e-5	-7.746e-6
-0.464	-8.478e-5	-7.733e-6
-0.492	-9.274e-5	-7.772e-6
-0.520	-1.000e-4	-7.768e-6
-0.548	-1.064e-4	-7.761e-6
-0.576	-1.119e-4	-7.763e-6
-0.596	-1.005e-4	-7.747e-6
-0.568	-6.516e-5	-7.738e-6
-0.540	-4.581e-5	-7.732e-6
-0.512	-3.208e-5	-7.746e-6
-0.484	-2.152e-5	-7.751e-6
-0.456	-1.296e-5	-7.761e-6
-0.428	-5.771e-6	-7.671e-6
-0.400	3.318e-7	-7.682e-6
-0.372	5.356e-6	-7.696e-6
-0.344	9.834e-6	-7.698e-6
-0.316	1.367e-5	-7.684e-6
-0.288	1.672e-5	-7.691e-6
-0.260	1.947e-5	-7.688e-6
-0.232	2.163e-5	-7.692e-6
-0.204	2.347e-5	-7.707e-6
-0.176	2.486e-5	-7.705e-6
-0.148	2.602e-5	-7.697e-6
-0.120	2.673e-5	-7.699e-6
-0.092	2.738e-5	-7.702e-6
-0.064	2.799e-5	-7.690e-6
-0.036	2.871e-5	-7.709e-6
-0.008	2.986e-5	-7.713e-6
0.020	3.198e-5	-7.669e-6
0.048	3.484e-5	-7.689e-6
0.076	3.928e-5	-7.687e-6
0.104	4.528e-5	-7.704e-6
0.132	5.209e-5	-7.701e-6
0.160	5.612e-5	-7.695e-6
0.188	5.055e-5	-7.694e-6
0.216	4.178e-5	-7.686e-6
0.244	3.740e-5	-7.692e-6
0.272	3.556e-5	-7.680e-6
0.300	3.476e-5	-7.693e-6
0.328	3.399e-5	-7.690e-6
0.356	3.331e-5	-7.695e-6
0.384	3.278e-5	-7.688e-6
0.412	3.233e-5	-7.680e-6
0.440	3.183e-5	-7.677e-6
0.468	3.177e-5	-7.678e-6
0.496	3.179e-5	-7.687e-6
0.524	3.231e-5	-7.682e-6
0.552	3.316e-5	-7.685e-6
0.580	3.478e-5	-7.689e-6
0.608	3.698e-5	-7.688e-6
0.636	3.996e-5	-7.691e-6
0.664	4.249e-5	-7.701e-6
0.692	4.487e-5	-7.708e-6
0.720	4.714e-5	-7.700e-6
0.748	4.979e-5	-7.705e-6
0.776	5.275e-5	-7.696e-6
0.804	5.607e-5	-7.708e-6
0.832	5.997e-5	-7.704e-6
0.860	6.481e-5	-7.711e-6
0.888	7.172e-5	-7.672e-6
0.884	2.642e-5	-7.718e-6
0.856	1.155e-5	-7.707e-6
0.828	4.100e-6	-7.704e-6
0.800	-3.826e-7	-7.713e-6
0.772	-3.465e-6	-7.699e-6
0.744	-5.522e-6	-7.705e-6
0.716	-7.236e-6	-7.698e-6
0.688	-8.328e-6	-7.703e-6
0.660	-9.382e-6	-7.779e-6
0.632	-1.014e-5	-7.778e-6
0.604	-1.082e-5	-7.798e-6
0.576	-1.140e-5	-7.786e-6
0.548	-1.218e-5	-7.790e-6
0.520	-1.281e-5	-7.781e-6
0.492	-1.351e-5	-7.793e-6
0.464	-1.424e-5	-7.785e-6
0.436	-1.496e-5	-7.789e-6
0.408	-1.569e-5	-7.778e-6
0.380	-1.629e-5	-7.782e-6
0.352	-1.664e-5	-7.765e-6
0.324	-1.667e-5	-7.786e-6
0.296	-1.658e-5	-7.790e-6
0.268	-1.673e-5	-7.771e-6
0.240	-1.709e-5	-7.762e-6
0.212	-1.762e-5	-7.769e-6
0.184	-1.820e-5	-7.777e-6
0.156	-1.887e-5	-7.768e-6
0.128	-1.952e-5	-7.776e-6
0.100	-2.025e-5	-7.789e-6
0.072	-2.083e-5	-7.769e-6
0.044	-2.153e-5	-7.769e-6
0.016	-2.192e-5	-7.774e-6
-0.012	-2.224e-5	-7.777e-6
-0.040	-2.209e-5	-7.774e-6
-0.068	-2.174e-5	-7.779e-6
-0.096	-2.114e-5	-7.774e-6
-0.124	-2.064e-5	-7.773e-6
-0.152	-2.046e-5	-7.776e-6
-0.180	-2.109e-5	-7.765e-6
-0.208	-2.283e-5	-7.771e-6
-0.236	-2.573e-5	-7.774e-6
-0.264	-2.985e-5	-7.773e-6
-0.292	-3.486e-5	-7.771e-6
-0.320	-4.046e-5	-7.761e-6
-0.348	-4.678e-5	-7.752e-6
-0.376	-5.380e-5	-7.765e-6
-0.404	-6.165e-5	-7.758e-6
-0.432	-6.994e-5	-7.770e-6
-0.460	-7.832e-5	-7.770e-6
-0.488	-8.634e-5	-7.737e-6
-0.516	-9.370e-5	-7.787e-6
-0.544	-1.001e-4	-7.769e-6
-0.572	-1.057e-4	-7.770e-6
-0.599	-1.103e-4	-7.776e-6