Folder: ElectrochromismFigures/data/cv/0620

Note: README.md
# How to use

- Run `luigid` first.
- Then, run `main.py` to execute Luigi tasks, which will generate pdf files in `dist` folder.

This still depends on some external csv files.

# Required libraries

* numpy
* scipy
* matplotlib
* Luigi

# Organization of source code

Written in Python. All source code is in `src` folder.
Some .py files have test code.

"For old data" means that it uses data for the first submission.

* calibration\_with\_colorchart.py

Input: `data/kinetics/colorchart`
Output: `data/kinetics/correction`

Use previously color chart L values to calculate brightness correction factors for PEDOT/PU films.
Color chart values and raw brightness values are calculated separately in advance.


* compare\_uvvis\_cielab.py

Correspondence between L values and absorption for a revised manuscript.

* data\_tools.py
* figure\_tools.py
* image\_tools.py
* luigi\_tools.py
* util.py

Utility functions

* kinetics\_manual\_fitting.py

Manual fitting of corrected L values to first-order reactions

* main.py

Entry point for all plotting. Not updated to the latest as of  November 29.

* make\_slices.py

Provides `mk_slices` function to make png slices from .mov files.
Since Scipy cannot open .mov files, this makes input files for later steps.

* measure\_100cycles.py

_Need to be updated to use the latest version of analysis._

100 cycle measurement of the first submission.

* measure\_and\_plot\_ox\_current.py

Plotting of oxdation current from CV.

* measure\_cie\_space.py

Spatial propagation of oxidation by L values.

* measure\_colorchart.py

Measure Lab color values of color chart with specified ROIs.

* measure\_kinetics\_revision.py

Measure rate constants with new data set.

* pedot\_voltage\_conditions.py

(For old data) Curve fitting of temporal color change.

* plot\_100cycles.py

(For old data) 100 cycles repeating.

* plot\_amperometry.py

(NOT used) Plotting amperometry data.

* plot\_cv.py

Plotting CV.

* plot\_final\_colors.py

Plotting final colors.

* plot\_kinetics.py

(For old data) Plotting kinetics.

* plot\_kinetics.py

(For new data) Plotting kinetics.

* plot\_kinetics\_space.py

(For old data) Plotting spatial propagation of kinetics.

* plot\_thickness.py

Plotting thickness of film. For both old and new data.

* plot\_uvvis\_lab\_timecourse.py

Plotting UV-Vis and L value over time as well as corrlation between them.

* tensile\_test.py

Plotting tensile testing.

* test\_calibration.py

Testing calibration with a color chart.

File: 750 rpm cv.txt
June 20, 2016   16:54:22
Cyclic Voltammetry
File: c:\users\potentio2\desktop\suda\20160620\750 rpm cv.txt
Data Source:  Experiment
Instrument Model:  CHI7082E
Header:
Note:

Init E (V) = 0
High E (V) = 0.9
Low E (V) = -0.6
Init P/N = P
Scan Rate (V/s) = 0.01
Segment = 6
Sample Interval (V) = 0.001
Quiet Time (sec) = 2
Sensitivity (A/V) = 0.001
Sens 2 (A/V) = 1e-6

Segment 1:

Segment 2:

Segment 3:
Ep = 0.151V
ip = 1.112e-5A
Ah = 1.080e-4C

Segment 4:

Segment 5:
Ep = 0.153V
ip = 1.094e-5A
Ah = 1.109e-4C

Segment 6:

Current 2:

Segment 1:

Segment 2:

Segment 3:
Segment 4:
Ep = -0.245V
ip = -1.708e-11A
Ah = -1.633e-11C

Segment 5:
Segment 6:

Potential/V	i1/A	i2/A

0.000	-3.491e-5	-7.631e-9
0.028	1.247e-5	-7.553e-9
0.056	2.103e-5	-7.567e-9
0.084	2.433e-5	-7.589e-9
0.112	2.575e-5	-7.600e-9
0.140	2.654e-5	-7.607e-9
0.168	2.683e-5	-7.618e-9
0.196	2.706e-5	-7.615e-9
0.224	2.721e-5	-7.625e-9
0.252	2.743e-5	-7.632e-9
0.280	2.749e-5	-7.622e-9
0.308	2.763e-5	-7.633e-9
0.336	2.754e-5	-7.633e-9
0.364	2.766e-5	-7.637e-9
0.392	2.757e-5	-7.649e-9
0.420	2.778e-5	-7.642e-9
0.448	2.783e-5	-7.651e-9
0.476	2.818e-5	-7.661e-9
0.504	2.846e-5	-7.661e-9
0.532	2.907e-5	-7.658e-9
0.560	2.971e-5	-7.668e-9
0.588	3.098e-5	-7.644e-9
0.616	3.264e-5	-7.635e-9
0.644	3.472e-5	-7.649e-9
0.672	3.737e-5	-7.650e-9
0.700	4.069e-5	-7.658e-9
0.728	4.441e-5	-7.668e-9
0.756	4.914e-5	-7.680e-9
0.784	5.460e-5	-7.674e-9
0.812	6.190e-5	-7.673e-9
0.840	7.089e-5	-7.633e-9
0.868	8.187e-5	-7.663e-9
0.896	9.428e-5	-7.670e-9
0.876	2.547e-5	-7.691e-9
0.848	9.142e-6	-7.685e-9
0.820	7.777e-7	-7.686e-9
0.792	-4.082e-6	-7.676e-9
0.764	-7.407e-6	-7.665e-9
0.736	-9.478e-6	-7.766e-9
0.708	-1.099e-5	-7.764e-9
0.680	-1.208e-5	-7.763e-9
0.652	-1.295e-5	-7.761e-9
0.624	-1.360e-5	-7.761e-9
0.596	-1.430e-5	-7.766e-9
0.568	-1.482e-5	-7.770e-9
0.540	-1.542e-5	-7.766e-9
0.512	-1.592e-5	-7.768e-9
0.484	-1.638e-5	-7.768e-9
0.456	-1.681e-5	-7.754e-9
0.428	-1.728e-5	-7.752e-9
0.400	-1.770e-5	-7.759e-9
0.372	-1.807e-5	-7.757e-9
0.344	-1.835e-5	-7.759e-9
0.316	-1.888e-5	-7.767e-9
0.288	-1.943e-5	-7.763e-9
0.260	-2.014e-5	-7.767e-9
0.232	-2.082e-5	-7.765e-9
0.204	-2.165e-5	-7.756e-9
0.176	-2.223e-5	-7.754e-9
0.148	-2.305e-5	-7.761e-9
0.120	-2.381e-5	-7.756e-9
0.092	-2.478e-5	-7.759e-9
0.064	-2.565e-5	-7.753e-9
0.036	-2.650e-5	-7.762e-9
0.008	-2.709e-5	-7.750e-9
-0.020	-2.752e-5	-7.755e-9
-0.048	-2.747e-5	-7.744e-9
-0.076	-2.720e-5	-7.754e-9
-0.104	-2.660e-5	-7.749e-9
-0.132	-2.600e-5	-7.756e-9
-0.160	-2.550e-5	-7.754e-9
-0.188	-2.567e-5	-7.750e-9
-0.216	-2.670e-5	-7.747e-9
-0.244	-2.895e-5	-7.765e-9
-0.272	-3.237e-5	-7.768e-9
-0.300	-3.703e-5	-7.760e-9
-0.328	-4.292e-5	-7.746e-9
-0.356	-5.011e-5	-7.768e-9
-0.384	-5.836e-5	-7.760e-9
-0.412	-6.735e-5	-7.738e-9
-0.440	-7.636e-5	-7.743e-9
-0.468	-8.504e-5	-7.724e-9
-0.496	-9.237e-5	-7.762e-9
-0.524	-9.803e-5	-7.768e-9
-0.552	-1.016e-4	-7.756e-9
-0.580	-1.032e-4	-7.759e-9
-0.592	-8.126e-5	-7.715e-9
-0.564	-5.381e-5	-7.745e-9
-0.536	-3.793e-5	-7.749e-9
-0.508	-2.631e-5	-7.747e-9
-0.480	-1.720e-5	-7.748e-9
-0.452	-9.409e-6	-7.755e-9
-0.424	-2.926e-6	-7.690e-9
-0.396	2.540e-6	-7.685e-9
-0.368	7.241e-6	-7.689e-9
-0.340	1.128e-5	-7.681e-9
-0.312	1.447e-5	-7.699e-9
-0.284	1.728e-5	-7.685e-9
-0.256	1.937e-5	-7.694e-9
-0.228	2.099e-5	-7.691e-9
-0.200	2.246e-5	-7.696e-9
-0.172	2.352e-5	-7.689e-9
-0.144	2.465e-5	-7.697e-9
-0.116	2.572e-5	-7.695e-9
-0.088	2.685e-5	-7.698e-9
-0.060	2.825e-5	-7.706e-9
-0.032	2.972e-5	-7.702e-9
-0.004	3.192e-5	-7.682e-9
0.024	3.455e-5	-7.673e-9
0.052	3.765e-5	-7.678e-9
0.080	4.101e-5	-7.689e-9
0.108	4.466e-5	-7.689e-9
0.136	4.716e-5	-7.696e-9
0.164	4.748e-5	-7.697e-9
0.192	4.356e-5	-7.685e-9
0.220	4.070e-5	-7.677e-9
0.248	3.952e-5	-7.692e-9
0.276	3.922e-5	-7.686e-9
0.304	3.893e-5	-7.687e-9
0.332	3.868e-5	-7.693e-9
0.360	3.799e-5	-7.683e-9
0.388	3.728e-5	-7.688e-9
0.416	3.645e-5	-7.673e-9
0.444	3.587e-5	-7.671e-9
0.472	3.560e-5	-7.677e-9
0.500	3.573e-5	-7.689e-9
0.528	3.623e-5	-7.682e-9
0.556	3.741e-5	-7.682e-9
0.584	3.909e-5	-7.682e-9
0.612	4.161e-5	-7.681e-9
0.640	4.479e-5	-7.707e-9
0.668	4.861e-5	-7.710e-9
0.696	5.222e-5	-7.689e-9
0.724	5.555e-5	-7.689e-9
0.752	5.901e-5	-7.694e-9
0.780	6.316e-5	-7.691e-9
0.808	6.799e-5	-7.712e-9
0.836	7.436e-5	-7.665e-9
0.864	8.209e-5	-7.658e-9
0.892	9.271e-5	-7.679e-9
0.880	3.241e-5	-7.681e-9
0.852	1.401e-5	-7.698e-9
0.824	4.737e-6	-7.702e-9
0.796	-1.082e-6	-7.696e-9
0.768	-4.854e-6	-7.689e-9
0.740	-7.437e-6	-7.676e-9
0.712	-9.249e-6	-7.767e-9
0.684	-1.067e-5	-7.766e-9
0.656	-1.165e-5	-7.768e-9
0.628	-1.257e-5	-7.769e-9
0.600	-1.337e-5	-7.765e-9
0.572	-1.419e-5	-7.767e-9
0.544	-1.484e-5	-7.771e-9
0.516	-1.557e-5	-7.768e-9
0.488	-1.631e-5	-7.766e-9
0.460	-1.705e-5	-7.754e-9
0.432	-1.764e-5	-7.753e-9
0.404	-1.840e-5	-7.769e-9
0.376	-1.882e-5	-7.769e-9
0.348	-1.905e-5	-7.761e-9
0.320	-1.922e-5	-7.761e-9
0.292	-1.979e-5	-7.782e-9
0.264	-2.037e-5	-7.763e-9
0.236	-2.111e-5	-7.756e-9
0.208	-2.177e-5	-7.764e-9
0.180	-2.253e-5	-7.759e-9
0.152	-2.318e-5	-7.754e-9
0.124	-2.391e-5	-7.756e-9
0.096	-2.468e-5	-7.747e-9
0.068	-2.542e-5	-7.746e-9
0.040	-2.609e-5	-7.761e-9
0.012	-2.657e-5	-7.748e-9
-0.016	-2.677e-5	-7.747e-9
-0.044	-2.663e-5	-7.768e-9
-0.072	-2.611e-5	-7.758e-9
-0.100	-2.541e-5	-7.756e-9
-0.128	-2.464e-5	-7.755e-9
-0.156	-2.404e-5	-7.758e-9
-0.184	-2.375e-5	-7.757e-9
-0.212	-2.430e-5	-7.762e-9
-0.240	-2.572e-5	-7.750e-9
-0.268	-2.837e-5	-7.760e-9
-0.296	-3.209e-5	-7.755e-9
-0.324	-3.709e-5	-7.747e-9
-0.352	-4.332e-5	-7.749e-9
-0.380	-5.071e-5	-7.767e-9
-0.408	-5.883e-5	-7.766e-9
-0.436	-6.742e-5	-7.745e-9
-0.464	-7.573e-5	-7.730e-9
-0.492	-8.335e-5	-7.738e-9
-0.520	-8.948e-5	-7.776e-9
-0.548	-9.386e-5	-7.771e-9
-0.576	-9.638e-5	-7.757e-9
-0.596	-8.250e-5	-7.713e-9
-0.568	-5.262e-5	-7.737e-9
-0.540	-3.662e-5	-7.731e-9
-0.512	-2.523e-5	-7.750e-9
-0.484	-1.627e-5	-7.750e-9
-0.456	-8.712e-6	-7.706e-9
-0.428	-2.409e-6	-7.687e-9
-0.400	2.996e-6	-7.682e-9
-0.372	7.678e-6	-7.688e-9
-0.344	1.154e-5	-7.680e-9
-0.316	1.478e-5	-7.686e-9
-0.288	1.739e-5	-7.684e-9
-0.260	1.955e-5	-7.694e-9
-0.232	2.122e-5	-7.682e-9
-0.204	2.267e-5	-7.685e-9
-0.176	2.384e-5	-7.696e-9
-0.148	2.499e-5	-7.703e-9
-0.120	2.596e-5	-7.697e-9
-0.092	2.707e-5	-7.693e-9
-0.064	2.831e-5	-7.695e-9
-0.036	3.002e-5	-7.707e-9
-0.008	3.177e-5	-7.675e-9
0.020	3.418e-5	-7.668e-9
0.048	3.692e-5	-7.674e-9
0.076	4.010e-5	-7.695e-9
0.104	4.335e-5	-7.687e-9
0.132	4.619e-5	-7.688e-9
0.160	4.700e-5	-7.690e-9
0.188	4.411e-5	-7.691e-9
0.216	4.065e-5	-7.669e-9
0.244	3.920e-5	-7.683e-9
0.272	3.871e-5	-7.685e-9
0.300	3.863e-5	-7.686e-9
0.328	3.818e-5	-7.688e-9
0.356	3.765e-5	-7.676e-9
0.384	3.685e-5	-7.681e-9
0.412	3.629e-5	-7.691e-9
0.440	3.557e-5	-7.688e-9
0.468	3.533e-5	-7.682e-9
0.496	3.525e-5	-7.679e-9
0.524	3.580e-5	-7.674e-9
0.552	3.670e-5	-7.677e-9
0.580	3.829e-5	-7.679e-9
0.608	4.046e-5	-7.689e-9
0.636	4.358e-5	-7.683e-9
0.664	4.705e-5	-7.697e-9
0.692	5.068e-5	-7.683e-9
0.720	5.404e-5	-7.693e-9
0.748	5.733e-5	-7.694e-9
0.776	6.108e-5	-7.690e-9
0.804	6.562e-5	-7.699e-9
0.832	7.112e-5	-7.667e-9
0.860	7.784e-5	-7.687e-9
0.888	8.684e-5	-7.695e-9
0.884	3.458e-5	-7.700e-9
0.856	1.527e-5	-7.708e-9
0.828	5.506e-6	-7.693e-9
0.800	-3.846e-7	-7.699e-9
0.772	-4.285e-6	-7.688e-9
0.744	-6.989e-6	-7.689e-9
0.716	-8.920e-6	-7.735e-9
0.688	-1.024e-5	-7.771e-9
0.660	-1.134e-5	-7.772e-9
0.632	-1.220e-5	-7.776e-9
0.604	-1.310e-5	-7.771e-9
0.576	-1.381e-5	-7.780e-9
0.548	-1.456e-5	-7.769e-9
0.520	-1.528e-5	-7.764e-9
0.492	-1.605e-5	-7.767e-9
0.464	-1.672e-5	-7.779e-9
0.436	-1.744e-5	-7.768e-9
0.408	-1.818e-5	-7.770e-9
0.380	-1.866e-5	-7.770e-9
0.352	-1.888e-5	-7.769e-9
0.324	-1.910e-5	-7.762e-9
0.296	-1.953e-5	-7.769e-9
0.268	-2.015e-5	-7.760e-9
0.240	-2.081e-5	-7.759e-9
0.212	-2.155e-5	-7.761e-9
0.184	-2.226e-5	-7.765e-9
0.156	-2.297e-5	-7.758e-9
0.128	-2.362e-5	-7.759e-9
0.100	-2.445e-5	-7.762e-9
0.072	-2.510e-5	-7.755e-9
0.044	-2.579e-5	-7.744e-9
0.016	-2.619e-5	-7.746e-9
-0.012	-2.652e-5	-7.753e-9
-0.040	-2.635e-5	-7.742e-9
-0.068	-2.590e-5	-7.756e-9
-0.096	-2.515e-5	-7.745e-9
-0.124	-2.437e-5	-7.760e-9
-0.152	-2.358e-5	-7.767e-9
-0.180	-2.325e-5	-7.758e-9
-0.208	-2.358e-5	-7.760e-9
-0.236	-2.484e-5	-7.769e-9
-0.264	-2.718e-5	-7.752e-9
-0.292	-3.080e-5	-7.769e-9
-0.320	-3.560e-5	-7.759e-9
-0.348	-4.166e-5	-7.755e-9
-0.376	-4.890e-5	-7.774e-9
-0.404	-5.698e-5	-7.752e-9
-0.432	-6.541e-5	-7.748e-9
-0.460	-7.389e-5	-7.742e-9
-0.488	-8.153e-5	-7.732e-9
-0.516	-8.797e-5	-7.766e-9
-0.544	-9.259e-5	-7.765e-9
-0.572	-9.548e-5	-7.769e-9
-0.599	-9.685e-5	-7.761e-9

File: 1000 rpm cv.txt
June 20, 2016   17:21:11
Cyclic Voltammetry
File: c:\users\potentio2\desktop\suda\20160620\1000 rpm cv.txt
Data Source:  Experiment
Instrument Model:  CHI7082E
Header:
Note:

Init E (V) = 0
High E (V) = 0.9
Low E (V) = -0.6
Init P/N = P
Scan Rate (V/s) = 0.01
Segment = 6
Sample Interval (V) = 0.001
Quiet Time (sec) = 2
Sensitivity (A/V) = 0.001
Sens 2 (A/V) = 1e-6

Segment 1:

Segment 2:

Segment 3:
Ep = 0.127V
ip = 6.858e-6A
Ah = 6.810e-5C

Segment 4:

Segment 5:
Ep = 0.127V
ip = 4.556e-6A
Ah = 4.718e-5C

Segment 6:

Current 2:

Segment 1:

Segment 2:
Ep = 0.014V
ip = -3.683e-11A
Ah = -1.393e-10C

Segment 3:
Segment 4:
Ep = -0.039V
ip = -2.221e-11A
Ah = -4.340e-11C

Segment 5:
Segment 6:

Potential/V	i1/A	i2/A

0.000	2.215e-5	-7.501e-9
0.028	3.034e-5	-7.573e-9
0.056	3.205e-5	-7.559e-9
0.084	3.358e-5	-7.578e-9
0.112	3.505e-5	-7.588e-9
0.140	3.656e-5	-7.591e-9
0.168	3.837e-5	-7.606e-9
0.196	4.053e-5	-7.609e-9
0.224	4.272e-5	-7.623e-9
0.252	4.375e-5	-7.627e-9
0.280	4.366e-5	-7.632e-9
0.308	4.368e-5	-7.636e-9
0.336	4.363e-5	-7.642e-9
0.364	4.348e-5	-7.640e-9
0.392	4.240e-5	-7.637e-9
0.420	4.115e-5	-7.639e-9
0.448	4.025e-5	-7.642e-9
0.476	3.997e-5	-7.648e-9
0.504	3.996e-5	-7.659e-9
0.532	4.057e-5	-7.654e-9
0.560	4.154e-5	-7.661e-9
0.588	4.354e-5	-7.675e-9
0.616	4.624e-5	-7.663e-9
0.644	4.978e-5	-7.676e-9
0.672	5.340e-5	-7.667e-9
0.700	5.721e-5	-7.685e-9
0.728	6.085e-5	-7.678e-9
0.756	6.470e-5	-7.694e-9
0.784	6.887e-5	-7.700e-9
0.812	7.451e-5	-7.676e-9
0.840	8.192e-5	-7.667e-9
0.868	9.201e-5	-7.679e-9
0.896	1.044e-4	-7.700e-9
0.876	2.799e-5	-7.708e-9
0.848	9.996e-6	-7.710e-9
0.820	9.774e-7	-7.684e-9
0.792	-4.486e-6	-7.689e-9
0.764	-8.250e-6	-7.701e-9
0.736	-1.078e-5	-7.762e-9
0.708	-1.269e-5	-7.764e-9
0.680	-1.398e-5	-7.767e-9
0.652	-1.524e-5	-7.759e-9
0.624	-1.610e-5	-7.757e-9
0.596	-1.705e-5	-7.761e-9
0.568	-1.775e-5	-7.750e-9
0.540	-1.855e-5	-7.759e-9
0.512	-1.929e-5	-7.764e-9
0.484	-1.992e-5	-7.776e-9
0.456	-2.051e-5	-7.769e-9
0.428	-2.113e-5	-7.762e-9
0.400	-2.170e-5	-7.771e-9
0.372	-2.204e-5	-7.766e-9
0.344	-2.232e-5	-7.763e-9
0.316	-2.281e-5	-7.760e-9
0.288	-2.335e-5	-7.754e-9
0.260	-2.401e-5	-7.759e-9
0.232	-2.462e-5	-7.757e-9
0.204	-2.532e-5	-7.753e-9
0.176	-2.587e-5	-7.760e-9
0.148	-2.657e-5	-7.751e-9
0.120	-2.725e-5	-7.753e-9
0.092	-2.802e-5	-7.753e-9
0.064	-2.862e-5	-7.770e-9
0.036	-2.927e-5	-7.778e-9
0.008	-2.963e-5	-7.770e-9
-0.020	-2.986e-5	-7.786e-9
-0.048	-2.965e-5	-7.774e-9
-0.076	-2.949e-5	-7.771e-9
-0.104	-2.892e-5	-7.773e-9
-0.132	-2.846e-5	-7.774e-9
-0.160	-2.819e-5	-7.763e-9
-0.188	-2.874e-5	-7.781e-9
-0.216	-2.992e-5	-7.776e-9
-0.244	-3.226e-5	-7.770e-9
-0.272	-3.538e-5	-7.768e-9
-0.300	-3.957e-5	-7.767e-9
-0.328	-4.484e-5	-7.751e-9
-0.356	-5.139e-5	-7.787e-9
-0.384	-5.896e-5	-7.770e-9
-0.412	-6.712e-5	-7.748e-9
-0.440	-7.545e-5	-7.770e-9
-0.468	-8.337e-5	-7.752e-9
-0.496	-9.011e-5	-7.773e-9
-0.524	-9.536e-5	-7.782e-9
-0.552	-9.880e-5	-7.776e-9
-0.580	-1.008e-4	-7.777e-9
-0.592	-7.959e-5	-7.742e-9
-0.564	-5.245e-5	-7.750e-9
-0.536	-3.669e-5	-7.747e-9
-0.508	-2.531e-5	-7.757e-9
-0.480	-1.624e-5	-7.774e-9
-0.452	-8.784e-6	-7.730e-9
-0.424	-2.414e-6	-7.684e-9
-0.396	3.070e-6	-7.684e-9
-0.368	7.624e-6	-7.714e-9
-0.340	1.156e-5	-7.694e-9
-0.312	1.475e-5	-7.707e-9
-0.284	1.761e-5	-7.701e-9
-0.256	1.989e-5	-7.708e-9
-0.228	2.179e-5	-7.708e-9
-0.200	2.358e-5	-7.711e-9
-0.172	2.524e-5	-7.713e-9
-0.144	2.679e-5	-7.707e-9
-0.116	2.838e-5	-7.716e-9
-0.088	3.007e-5	-7.722e-9
-0.060	3.207e-5	-7.693e-9
-0.032	3.434e-5	-7.698e-9
-0.004	3.663e-5	-7.699e-9
0.024	3.925e-5	-7.697e-9
0.052	4.177e-5	-7.699e-9
0.080	4.443e-5	-7.710e-9
0.108	4.752e-5	-7.712e-9
0.136	4.855e-5	-7.715e-9
0.164	4.670e-5	-7.712e-9
0.192	4.697e-5	-7.706e-9
0.220	4.937e-5	-7.712e-9
0.248	5.182e-5	-7.704e-9
0.276	5.161e-5	-7.692e-9
0.304	4.938e-5	-7.721e-9
0.332	4.761e-5	-7.710e-9
0.360	4.582e-5	-7.698e-9
0.388	4.395e-5	-7.704e-9
0.416	4.241e-5	-7.695e-9
0.444	4.127e-5	-7.701e-9
0.472	4.064e-5	-7.703e-9
0.500	4.058e-5	-7.706e-9
0.528	4.096e-5	-7.697e-9
0.556	4.210e-5	-7.712e-9
0.584	4.369e-5	-7.710e-9
0.612	4.628e-5	-7.713e-9
0.640	4.955e-5	-7.718e-9
0.668	5.336e-5	-7.698e-9
0.696	5.687e-5	-7.710e-9
0.724	6.051e-5	-7.713e-9
0.752	6.435e-5	-7.734e-9
0.780	6.878e-5	-7.724e-9
0.808	7.382e-5	-7.704e-9
0.836	8.007e-5	-7.682e-9
0.864	8.811e-5	-7.709e-9
0.892	9.933e-5	-7.703e-9
0.880	3.234e-5	-7.694e-9
0.852	1.274e-5	-7.716e-9
0.824	2.970e-6	-7.703e-9
0.796	-3.016e-6	-7.695e-9
0.768	-7.093e-6	-7.691e-9
0.740	-9.864e-6	-7.794e-9
0.712	-1.180e-5	-7.789e-9
0.684	-1.345e-5	-7.780e-9
0.656	-1.453e-5	-7.789e-9
0.628	-1.555e-5	-7.781e-9
0.600	-1.640e-5	-7.810e-9
0.572	-1.728e-5	-7.772e-9
0.544	-1.804e-5	-7.773e-9
0.516	-1.881e-5	-7.795e-9
0.488	-1.958e-5	-7.784e-9
0.460	-2.033e-5	-7.777e-9
0.432	-2.095e-5	-7.779e-9
0.404	-2.176e-5	-7.781e-9
0.376	-2.221e-5	-7.769e-9
0.348	-2.249e-5	-7.769e-9
0.320	-2.272e-5	-7.765e-9
0.292	-2.326e-5	-7.769e-9
0.264	-2.383e-5	-7.773e-9
0.236	-2.454e-5	-7.791e-9
0.208	-2.509e-5	-7.771e-9
0.180	-2.578e-5	-7.778e-9
0.152	-2.636e-5	-7.759e-9
0.124	-2.706e-5	-7.765e-9
0.096	-2.777e-5	-7.765e-9
0.068	-2.851e-5	-7.781e-9
0.040	-2.911e-5	-7.785e-9
0.012	-2.957e-5	-7.788e-9
-0.016	-2.982e-5	-7.789e-9
-0.044	-2.980e-5	-7.785e-9
-0.072	-2.942e-5	-7.795e-9
-0.100	-2.890e-5	-7.783e-9
-0.128	-2.829e-5	-7.762e-9
-0.156	-2.791e-5	-7.763e-9
-0.184	-2.795e-5	-7.765e-9
-0.212	-2.875e-5	-7.788e-9
-0.240	-3.037e-5	-7.779e-9
-0.268	-3.310e-5	-7.773e-9
-0.296	-3.661e-5	-7.766e-9
-0.324	-4.139e-5	-7.767e-9
-0.352	-4.734e-5	-7.745e-9
-0.380	-5.453e-5	-7.784e-9
-0.408	-6.237e-5	-7.777e-9
-0.436	-7.072e-5	-7.757e-9
-0.464	-7.867e-5	-7.750e-9
-0.492	-8.577e-5	-7.738e-9
-0.520	-9.133e-5	-7.786e-9
-0.548	-9.521e-5	-7.769e-9
-0.576	-9.756e-5	-7.781e-9
-0.596	-8.361e-5	-7.738e-9
-0.568	-5.294e-5	-7.752e-9
-0.540	-3.660e-5	-7.750e-9
-0.512	-2.501e-5	-7.757e-9
-0.484	-1.586e-5	-7.760e-9
-0.456	-8.253e-6	-7.687e-9
-0.428	-1.837e-6	-7.703e-9
-0.400	3.504e-6	-7.713e-9
-0.372	8.006e-6	-7.712e-9
-0.344	1.179e-5	-7.693e-9
-0.316	1.500e-5	-7.715e-9
-0.288	1.768e-5	-7.674e-9
-0.260	2.011e-5	-7.708e-9
-0.232	2.195e-5	-7.709e-9
-0.204	2.376e-5	-7.712e-9
-0.176	2.531e-5	-7.720e-9
-0.148	2.692e-5	-7.709e-9
-0.120	2.837e-5	-7.712e-9
-0.092	3.028e-5	-7.719e-9
-0.064	3.209e-5	-7.694e-9
-0.036	3.412e-5	-7.695e-9
-0.008	3.620e-5	-7.704e-9
0.020	3.866e-5	-7.707e-9
0.048	4.111e-5	-7.700e-9
0.076	4.369e-5	-7.706e-9
0.104	4.633e-5	-7.706e-9
0.132	4.762e-5	-7.700e-9
0.160	4.590e-5	-7.704e-9
0.188	4.566e-5	-7.697e-9
0.216	4.743e-5	-7.702e-9
0.244	5.021e-5	-7.713e-9
0.272	5.133e-5	-7.700e-9
0.300	4.942e-5	-7.715e-9
0.328	4.734e-5	-7.718e-9
0.356	4.606e-5	-7.706e-9
0.384	4.402e-5	-7.720e-9
0.412	4.227e-5	-7.700e-9
0.440	4.079e-5	-7.697e-9
0.468	4.019e-5	-7.704e-9
0.496	3.995e-5	-7.701e-9
0.524	4.038e-5	-7.700e-9
0.552	4.120e-5	-7.699e-9
0.580	4.274e-5	-7.705e-9
0.608	4.488e-5	-7.704e-9
0.636	4.802e-5	-7.705e-9
0.664	5.151e-5	-7.700e-9
0.692	5.503e-5	-7.707e-9
0.720	5.828e-5	-7.716e-9
0.748	6.186e-5	-7.713e-9
0.776	6.576e-5	-7.718e-9
0.804	7.043e-5	-7.688e-9
0.832	7.604e-5	-7.682e-9
0.860	8.325e-5	-7.693e-9
0.888	9.303e-5	-7.700e-9
0.884	3.454e-5	-7.707e-9
0.856	1.371e-5	-7.711e-9
0.828	3.565e-6	-7.710e-9
0.800	-2.483e-6	-7.715e-9
0.772	-6.654e-6	-7.694e-9
0.744	-9.381e-6	-7.792e-9
0.716	-1.147e-5	-7.790e-9
0.688	-1.301e-5	-7.780e-9
0.660	-1.420e-5	-7.793e-9
0.632	-1.512e-5	-7.781e-9
0.604	-1.605e-5	-7.788e-9
0.576	-1.692e-5	-7.773e-9
0.548	-1.771e-5	-7.777e-9
0.520	-1.845e-5	-7.774e-9
0.492	-1.924e-5	-7.792e-9
0.464	-1.992e-5	-7.783e-9
0.436	-2.067e-5	-7.784e-9
0.408	-2.146e-5	-7.783e-9
0.380	-2.199e-5	-7.779e-9
0.352	-2.225e-5	-7.765e-9
0.324	-2.246e-5	-7.769e-9
0.296	-2.292e-5	-7.763e-9
0.268	-2.354e-5	-7.762e-9
0.240	-2.414e-5	-7.771e-9
0.212	-2.475e-5	-7.772e-9
0.184	-2.538e-5	-7.767e-9
0.156	-2.602e-5	-7.786e-9
0.128	-2.665e-5	-7.768e-9
0.100	-2.743e-5	-7.751e-9
0.072	-2.804e-5	-7.767e-9
0.044	-2.874e-5	-7.780e-9
0.016	-2.917e-5	-7.771e-9
-0.012	-2.955e-5	-7.785e-9
-0.040	-2.953e-5	-7.774e-9
-0.068	-2.924e-5	-7.780e-9
-0.096	-2.868e-5	-7.779e-9
-0.124	-2.809e-5	-7.782e-9
-0.152	-2.754e-5	-7.758e-9
-0.180	-2.742e-5	-7.761e-9
-0.208	-2.795e-5	-7.767e-9
-0.236	-2.942e-5	-7.778e-9
-0.264	-3.181e-5	-7.776e-9
-0.292	-3.529e-5	-7.770e-9
-0.320	-3.984e-5	-7.769e-9
-0.348	-4.579e-5	-7.765e-9
-0.376	-5.277e-5	-7.775e-9
-0.404	-6.071e-5	-7.765e-9
-0.432	-6.899e-5	-7.776e-9
-0.460	-7.718e-5	-7.762e-9
-0.488	-8.440e-5	-7.746e-9
-0.516	-9.029e-5	-7.787e-9
-0.544	-9.439e-5	-7.773e-9
-0.572	-9.699e-5	-7.768e-9
-0.599	-9.830e-5	-7.789e-9