Folder: ElectrochromismFigures/data/cv/0620 (part 2)

File: 2000 rpm cv2.txt
June 20, 2016   18:11:19
Cyclic Voltammetry
File: c:\users\potentio2\desktop\suda\20160620\2000 rpm cv2.txt
Data Source:  Experiment
Instrument Model:  CHI7082E
Header:
Note:

Init E (V) = 0
High E (V) = 0.9
Low E (V) = -0.6
Init P/N = P
Scan Rate (V/s) = 0.01
Segment = 6
Sample Interval (V) = 0.001
Quiet Time (sec) = 2
Sensitivity (A/V) = 0.001
Sens 2 (A/V) = 0.001

Segment 1:

Segment 2:

Segment 3:
Ep = 0.151V
ip = 1.267e-5A
Ah = 1.260e-4C

Segment 4:

Segment 5:
Ep = 0.159V
ip = 1.185e-5A
Ah = 1.176e-4C

Segment 6:

Current 2:

Segment 1:

Segment 2:

Segment 3:

Segment 4:
Ep = -0.037V
ip = -2.681e-8A
Ah = -1.156e-7C

Ep = -0.281V
ip = -1.960e-8A
Ah = -7.120e-8C

Segment 5:
Segment 6:

Potential/V	i1/A	i2/A

0.000	-1.603e-5	-7.594e-6
0.028	1.437e-5	-7.545e-6
0.056	1.991e-5	-7.568e-6
0.084	2.170e-5	-7.576e-6
0.112	2.252e-5	-7.576e-6
0.140	2.286e-5	-7.582e-6
0.168	2.308e-5	-7.590e-6
0.196	2.325e-5	-7.609e-6
0.224	2.333e-5	-7.601e-6
0.252	2.334e-5	-7.607e-6
0.280	2.336e-5	-7.613e-6
0.308	2.352e-5	-7.619e-6
0.336	2.350e-5	-7.611e-6
0.364	2.360e-5	-7.618e-6
0.392	2.376e-5	-7.636e-6
0.420	2.409e-5	-7.638e-6
0.448	2.430e-5	-7.634e-6
0.476	2.486e-5	-7.643e-6
0.504	2.524e-5	-7.644e-6
0.532	2.602e-5	-7.651e-6
0.560	2.693e-5	-7.662e-6
0.588	2.826e-5	-7.652e-6
0.616	2.998e-5	-7.663e-6
0.644	3.217e-5	-7.625e-6
0.672	3.467e-5	-7.636e-6
0.700	3.719e-5	-7.648e-6
0.728	3.965e-5	-7.663e-6
0.756	4.229e-5	-7.660e-6
0.784	4.526e-5	-7.661e-6
0.812	4.890e-5	-7.680e-6
0.840	5.342e-5	-7.648e-6
0.868	5.915e-5	-7.667e-6
0.896	6.610e-5	-7.676e-6
0.876	1.801e-5	-7.681e-6
0.848	7.495e-6	-7.680e-6
0.820	1.893e-6	-7.662e-6
0.792	-1.453e-6	-7.676e-6
0.764	-3.979e-6	-7.665e-6
0.736	-5.607e-6	-7.665e-6
0.708	-6.938e-6	-7.672e-6
0.680	-7.854e-6	-7.672e-6
0.652	-8.609e-6	-7.681e-6
0.624	-9.200e-6	-7.745e-6
0.596	-9.801e-6	-7.766e-6
0.568	-1.031e-5	-7.758e-6
0.540	-1.080e-5	-7.768e-6
0.512	-1.123e-5	-7.759e-6
0.484	-1.167e-5	-7.760e-6
0.456	-1.205e-5	-7.757e-6
0.428	-1.249e-5	-7.760e-6
0.400	-1.283e-5	-7.762e-6
0.372	-1.301e-5	-7.760e-6
0.344	-1.314e-5	-7.756e-6
0.316	-1.348e-5	-7.753e-6
0.288	-1.387e-5	-7.757e-6
0.260	-1.426e-5	-7.768e-6
0.232	-1.475e-5	-7.762e-6
0.204	-1.537e-5	-7.762e-6
0.176	-1.587e-5	-7.753e-6
0.148	-1.655e-5	-7.759e-6
0.120	-1.711e-5	-7.744e-6
0.092	-1.787e-5	-7.748e-6
0.064	-1.848e-5	-7.760e-6
0.036	-1.904e-5	-7.761e-6
0.008	-1.930e-5	-7.759e-6
-0.020	-1.941e-5	-7.774e-6
-0.048	-1.909e-5	-7.776e-6
-0.076	-1.855e-5	-7.768e-6
-0.104	-1.773e-5	-7.764e-6
-0.132	-1.694e-5	-7.769e-6
-0.160	-1.613e-5	-7.773e-6
-0.188	-1.594e-5	-7.776e-6
-0.216	-1.622e-5	-7.763e-6
-0.244	-1.734e-5	-7.764e-6
-0.272	-1.959e-5	-7.769e-6
-0.300	-2.316e-5	-7.763e-6
-0.328	-2.815e-5	-7.749e-6
-0.356	-3.505e-5	-7.746e-6
-0.384	-4.337e-5	-7.748e-6
-0.412	-5.272e-5	-7.758e-6
-0.440	-6.232e-5	-7.741e-6
-0.468	-7.140e-5	-7.748e-6
-0.496	-7.910e-5	-7.747e-6
-0.524	-8.508e-5	-7.736e-6
-0.552	-8.874e-5	-7.779e-6
-0.580	-9.051e-5	-7.784e-6
-0.592	-7.210e-5	-7.733e-6
-0.564	-4.823e-5	-7.741e-6
-0.536	-3.407e-5	-7.745e-6
-0.508	-2.360e-5	-7.748e-6
-0.480	-1.539e-5	-7.759e-6
-0.452	-8.497e-6	-7.686e-6
-0.424	-2.812e-6	-7.678e-6
-0.396	2.046e-6	-7.665e-6
-0.368	6.149e-6	-7.684e-6
-0.340	9.509e-6	-7.701e-6
-0.312	1.211e-5	-7.680e-6
-0.284	1.423e-5	-7.687e-6
-0.256	1.597e-5	-7.698e-6
-0.228	1.730e-5	-7.698e-6
-0.200	1.844e-5	-7.697e-6
-0.172	1.942e-5	-7.687e-6
-0.144	2.003e-5	-7.679e-6
-0.116	2.085e-5	-7.693e-6
-0.088	2.146e-5	-7.690e-6
-0.060	2.247e-5	-7.698e-6
-0.032	2.388e-5	-7.695e-6
-0.004	2.583e-5	-7.705e-6
0.024	2.836e-5	-7.701e-6
0.052	3.148e-5	-7.671e-6
0.080	3.446e-5	-7.691e-6
0.108	3.745e-5	-7.686e-6
0.136	3.974e-5	-7.688e-6
0.164	4.052e-5	-7.683e-6
0.192	3.738e-5	-7.686e-6
0.220	3.398e-5	-7.683e-6
0.248	3.234e-5	-7.665e-6
0.276	3.186e-5	-7.675e-6
0.304	3.163e-5	-7.676e-6
0.332	3.124e-5	-7.671e-6
0.360	3.047e-5	-7.707e-6
0.388	2.979e-5	-7.712e-6
0.416	2.910e-5	-7.691e-6
0.444	2.873e-5	-7.693e-6
0.472	2.854e-5	-7.700e-6
0.500	2.879e-5	-7.715e-6
0.528	2.909e-5	-7.716e-6
0.556	2.999e-5	-7.714e-6
0.584	3.126e-5	-7.679e-6
0.612	3.328e-5	-7.682e-6
0.640	3.555e-5	-7.694e-6
0.668	3.852e-5	-7.689e-6
0.696	4.114e-5	-7.699e-6
0.724	4.378e-5	-7.689e-6
0.752	4.619e-5	-7.706e-6
0.780	4.894e-5	-7.707e-6
0.808	5.194e-5	-7.693e-6
0.836	5.597e-5	-7.681e-6
0.864	6.068e-5	-7.690e-6
0.892	6.728e-5	-7.715e-6
0.880	2.342e-5	-7.712e-6
0.852	1.079e-5	-7.710e-6
0.824	4.400e-6	-7.698e-6
0.796	1.321e-7	-7.712e-6
0.768	-2.616e-6	-7.700e-6
0.740	-4.684e-6	-7.705e-6
0.712	-6.124e-6	-7.686e-6
0.684	-7.213e-6	-7.699e-6
0.656	-7.946e-6	-7.686e-6
0.628	-8.705e-6	-7.734e-6
0.600	-9.305e-6	-7.777e-6
0.572	-9.864e-6	-7.790e-6
0.544	-1.039e-5	-7.795e-6
0.516	-1.095e-5	-7.791e-6
0.488	-1.149e-5	-7.784e-6
0.460	-1.208e-5	-7.778e-6
0.432	-1.252e-5	-7.768e-6
0.404	-1.311e-5	-7.778e-6
0.376	-1.336e-5	-7.788e-6
0.348	-1.349e-5	-7.770e-6
0.320	-1.362e-5	-7.775e-6
0.292	-1.398e-5	-7.782e-6
0.264	-1.437e-5	-7.775e-6
0.236	-1.487e-5	-7.776e-6
0.208	-1.533e-5	-7.767e-6
0.180	-1.596e-5	-7.783e-6
0.152	-1.655e-5	-7.778e-6
0.124	-1.714e-5	-7.766e-6
0.096	-1.781e-5	-7.767e-6
0.068	-1.849e-5	-7.766e-6
0.040	-1.904e-5	-7.773e-6
0.012	-1.939e-5	-7.774e-6
-0.016	-1.950e-5	-7.783e-6
-0.044	-1.932e-5	-7.779e-6
-0.072	-1.877e-5	-7.776e-6
-0.100	-1.801e-5	-7.769e-6
-0.128	-1.712e-5	-7.777e-6
-0.156	-1.639e-5	-7.768e-6
-0.184	-1.590e-5	-7.776e-6
-0.212	-1.611e-5	-7.784e-6
-0.240	-1.695e-5	-7.784e-6
-0.268	-1.884e-5	-7.772e-6
-0.296	-2.183e-5	-7.765e-6
-0.324	-2.620e-5	-7.761e-6
-0.352	-3.220e-5	-7.764e-6
-0.380	-3.969e-5	-7.761e-6
-0.408	-4.839e-5	-7.774e-6
-0.436	-5.760e-5	-7.758e-6
-0.464	-6.641e-5	-7.750e-6
-0.492	-7.428e-5	-7.740e-6
-0.520	-8.043e-5	-7.740e-6
-0.548	-8.471e-5	-7.740e-6
-0.576	-8.705e-5	-7.734e-6
-0.596	-7.498e-5	-7.730e-6
-0.568	-4.858e-5	-7.754e-6
-0.540	-3.393e-5	-7.751e-6
-0.512	-2.339e-5	-7.756e-6
-0.484	-1.510e-5	-7.761e-6
-0.456	-8.315e-6	-7.680e-6
-0.428	-2.628e-6	-7.680e-6
-0.400	2.178e-6	-7.684e-6
-0.372	6.307e-6	-7.685e-6
-0.344	9.545e-6	-7.693e-6
-0.316	1.233e-5	-7.687e-6
-0.288	1.446e-5	-7.689e-6
-0.260	1.632e-5	-7.695e-6
-0.232	1.765e-5	-7.700e-6
-0.204	1.894e-5	-7.697e-6
-0.176	1.967e-5	-7.706e-6
-0.148	2.034e-5	-7.703e-6
-0.120	2.101e-5	-7.699e-6
-0.092	2.182e-5	-7.698e-6
-0.064	2.272e-5	-7.694e-6
-0.036	2.412e-5	-7.696e-6
-0.008	2.559e-5	-7.701e-6
0.020	2.774e-5	-7.701e-6
0.048	3.043e-5	-7.713e-6
0.076	3.350e-5	-7.694e-6
0.104	3.650e-5	-7.685e-6
0.132	3.923e-5	-7.700e-6
0.160	4.093e-5	-7.689e-6
0.188	3.921e-5	-7.697e-6
0.216	3.500e-5	-7.681e-6
0.244	3.270e-5	-7.701e-6
0.272	3.187e-5	-7.677e-6
0.300	3.157e-5	-7.673e-6
0.328	3.119e-5	-7.683e-6
0.356	3.063e-5	-7.693e-6
0.384	2.967e-5	-7.715e-6
0.412	2.906e-5	-7.706e-6
0.440	2.853e-5	-7.702e-6
0.468	2.844e-5	-7.710e-6
0.496	2.840e-5	-7.711e-6
0.524	2.891e-5	-7.703e-6
0.552	2.965e-5	-7.721e-6
0.580	3.085e-5	-7.683e-6
0.608	3.256e-5	-7.686e-6
0.636	3.503e-5	-7.681e-6
0.664	3.767e-5	-7.694e-6
0.692	4.041e-5	-7.696e-6
0.720	4.290e-5	-7.693e-6
0.748	4.529e-5	-7.709e-6
0.776	4.799e-5	-7.700e-6
0.804	5.091e-5	-7.701e-6
0.832	5.427e-5	-7.705e-6
0.860	5.862e-5	-7.713e-6
0.888	6.475e-5	-7.732e-6
0.884	2.597e-5	-7.726e-6
0.856	1.225e-5	-7.709e-6
0.828	5.252e-6	-7.712e-6
0.800	9.282e-7	-7.708e-6
0.772	-2.142e-6	-7.703e-6
0.744	-4.251e-6	-7.702e-6
0.716	-5.835e-6	-7.690e-6
0.688	-6.889e-6	-7.693e-6
0.660	-7.756e-6	-7.695e-6
0.632	-8.451e-6	-7.698e-6
0.604	-9.107e-6	-7.773e-6
0.576	-9.676e-6	-7.782e-6
0.548	-1.025e-5	-7.790e-6
0.520	-1.078e-5	-7.775e-6
0.492	-1.134e-5	-7.782e-6
0.464	-1.185e-5	-7.784e-6
0.436	-1.241e-5	-7.781e-6
0.408	-1.301e-5	-7.770e-6
0.380	-1.338e-5	-7.771e-6
0.352	-1.351e-5	-7.769e-6
0.324	-1.361e-5	-7.777e-6
0.296	-1.390e-5	-7.787e-6
0.268	-1.429e-5	-7.780e-6
0.240	-1.469e-5	-7.777e-6
0.212	-1.524e-5	-7.787e-6
0.184	-1.580e-5	-7.785e-6
0.156	-1.642e-5	-7.781e-6
0.128	-1.699e-5	-7.769e-6
0.100	-1.770e-5	-7.766e-6
0.072	-1.827e-5	-7.762e-6
0.044	-1.889e-5	-7.771e-6
0.016	-1.923e-5	-7.768e-6
-0.012	-1.948e-5	-7.778e-6
-0.040	-1.930e-5	-7.782e-6
-0.068	-1.884e-5	-7.787e-6
-0.096	-1.809e-5	-7.768e-6
-0.124	-1.726e-5	-7.782e-6
-0.152	-1.645e-5	-7.783e-6
-0.180	-1.595e-5	-7.778e-6
-0.208	-1.600e-5	-7.773e-6
-0.236	-1.680e-5	-7.774e-6
-0.264	-1.845e-5	-7.775e-6
-0.292	-2.127e-5	-7.770e-6
-0.320	-2.537e-5	-7.767e-6
-0.348	-3.109e-5	-7.771e-6
-0.376	-3.823e-5	-7.757e-6
-0.404	-4.670e-5	-7.737e-6
-0.432	-5.565e-5	-7.775e-6
-0.460	-6.450e-5	-7.770e-6
-0.488	-7.232e-5	-7.754e-6
-0.516	-7.867e-5	-7.755e-6
-0.544	-8.303e-5	-7.738e-6
-0.572	-8.569e-5	-7.744e-6
-0.599	-8.676e-5	-7.745e-6