Folder: ElectrochromismFigures/data/cv/0622 (part 2)

File: 2000 rpm CV.txt
June 22, 2016   17:42:48
Cyclic Voltammetry
File: c:\users\potentio2\desktop\suda\20160622\2000 rpm cv.txt
Data Source:  Experiment
Instrument Model:  CHI7082E
Header:
Note:

Init E (V) = 0
High E (V) = 0.9
Low E (V) = -0.6
Init P/N = P
Scan Rate (V/s) = 0.01
Segment = 6
Sample Interval (V) = 0.001
Quiet Time (sec) = 2
Sensitivity (A/V) = 0.001
Sens 2 (A/V) = 0.001

Segment 1:

Segment 2:

Segment 3:
Ep = 0.175V
ip = 1.464e-5A
Ah = 1.223e-4C

Segment 4:
Ep = 0.000V
ip = -8.158e-7A
Ah = -9.230e-6C

Segment 5:
Ep = 0.183V
ip = 1.432e-5A
Ah = 1.117e-4C

Segment 6:

Current 2:

Segment 1:

Segment 2:
Ep = 0.087V
ip = -1.915e-8A
Ah = -2.458e-8C

Segment 3:
Segment 4:
Ep = -0.073V
ip = -2.929e-8A
Ah = -9.015e-8C

Segment 5:
Segment 6:
Ep = -0.454V
ip = -3.884e-8A
Ah = -3.215e-8C

Potential/V	i1/A	i2/A

0.000	-1.024e-5	-7.581e-6
0.028	1.597e-5	-7.542e-6
0.056	2.050e-5	-7.562e-6
0.084	2.190e-5	-7.569e-6
0.112	2.249e-5	-7.573e-6
0.140	2.274e-5	-7.587e-6
0.168	2.274e-5	-7.587e-6
0.196	2.281e-5	-7.599e-6
0.224	2.278e-5	-7.591e-6
0.252	2.289e-5	-7.598e-6
0.280	2.300e-5	-7.611e-6
0.308	2.322e-5	-7.615e-6
0.336	2.336e-5	-7.627e-6
0.364	2.376e-5	-7.613e-6
0.392	2.412e-5	-7.621e-6
0.420	2.468e-5	-7.633e-6
0.448	2.516e-5	-7.640e-6
0.476	2.579e-5	-7.633e-6
0.504	2.645e-5	-7.643e-6
0.532	2.740e-5	-7.640e-6
0.560	2.840e-5	-7.654e-6
0.588	2.999e-5	-7.655e-6
0.616	3.192e-5	-7.623e-6
0.644	3.424e-5	-7.624e-6
0.672	3.659e-5	-7.630e-6
0.700	3.945e-5	-7.639e-6
0.728	4.268e-5	-7.628e-6
0.756	4.661e-5	-7.647e-6
0.784	5.131e-5	-7.652e-6
0.812	5.709e-5	-7.665e-6
0.840	6.427e-5	-7.674e-6
0.868	7.294e-5	-7.638e-6
0.896	8.266e-5	-7.645e-6
0.876	2.506e-5	-7.673e-6
0.848	1.112e-5	-7.660e-6
0.820	3.806e-6	-7.663e-6
0.792	-7.773e-7	-7.656e-6
0.764	-3.847e-6	-7.662e-6
0.736	-5.879e-6	-7.646e-6
0.708	-7.437e-6	-7.650e-6
0.680	-8.459e-6	-7.668e-6
0.652	-9.348e-6	-7.741e-6
0.624	-9.960e-6	-7.746e-6
0.596	-1.064e-5	-7.757e-6
0.568	-1.114e-5	-7.755e-6
0.540	-1.158e-5	-7.752e-6
0.512	-1.203e-5	-7.753e-6
0.484	-1.241e-5	-7.752e-6
0.456	-1.273e-5	-7.750e-6
0.428	-1.308e-5	-7.751e-6
0.400	-1.337e-5	-7.745e-6
0.372	-1.370e-5	-7.750e-6
0.344	-1.396e-5	-7.756e-6
0.316	-1.432e-5	-7.757e-6
0.288	-1.469e-5	-7.758e-6
0.260	-1.519e-5	-7.750e-6
0.232	-1.565e-5	-7.755e-6
0.204	-1.635e-5	-7.749e-6
0.176	-1.684e-5	-7.754e-6
0.148	-1.753e-5	-7.742e-6
0.120	-1.821e-5	-7.747e-6
0.092	-1.896e-5	-7.759e-6
0.064	-1.967e-5	-7.751e-6
0.036	-2.048e-5	-7.749e-6
0.008	-2.097e-5	-7.735e-6
-0.020	-2.134e-5	-7.739e-6
-0.048	-2.132e-5	-7.767e-6
-0.076	-2.117e-5	-7.751e-6
-0.104	-2.094e-5	-7.744e-6
-0.132	-2.106e-5	-7.749e-6
-0.160	-2.187e-5	-7.740e-6
-0.188	-2.412e-5	-7.755e-6
-0.216	-2.843e-5	-7.744e-6
-0.244	-3.545e-5	-7.745e-6
-0.272	-4.500e-5	-7.721e-6
-0.300	-5.621e-5	-7.743e-6
-0.328	-6.758e-5	-7.734e-6
-0.356	-7.856e-5	-7.743e-6
-0.384	-8.995e-5	-7.756e-6
-0.412	-1.026e-4	-7.749e-6
-0.440	-1.162e-4	-7.732e-6
-0.468	-1.293e-4	-7.760e-6
-0.496	-1.404e-4	-7.732e-6
-0.524	-1.482e-4	-7.747e-6
-0.552	-1.525e-4	-7.733e-6
-0.580	-1.540e-4	-7.726e-6
-0.592	-1.243e-4	-7.709e-6
-0.564	-8.250e-5	-7.713e-6
-0.536	-5.831e-5	-7.732e-6
-0.508	-4.129e-5	-7.720e-6
-0.480	-2.833e-5	-7.729e-6
-0.452	-1.775e-5	-7.727e-6
-0.424	-9.103e-6	-7.716e-6
-0.396	-1.584e-6	-7.652e-6
-0.368	4.400e-6	-7.683e-6
-0.340	9.519e-6	-7.688e-6
-0.312	1.365e-5	-7.681e-6
-0.284	1.700e-5	-7.683e-6
-0.256	1.970e-5	-7.677e-6
-0.228	2.169e-5	-7.685e-6
-0.200	2.303e-5	-7.678e-6
-0.172	2.414e-5	-7.688e-6
-0.144	2.492e-5	-7.692e-6
-0.116	2.555e-5	-7.678e-6
-0.088	2.593e-5	-7.685e-6
-0.060	2.630e-5	-7.693e-6
-0.032	2.682e-5	-7.694e-6
-0.004	2.733e-5	-7.692e-6
0.024	2.879e-5	-7.699e-6
0.052	3.071e-5	-7.681e-6
0.080	3.328e-5	-7.666e-6
0.108	3.657e-5	-7.676e-6
0.136	4.004e-5	-7.676e-6
0.164	4.319e-5	-7.678e-6
0.192	4.206e-5	-7.677e-6
0.220	3.765e-5	-7.673e-6
0.248	3.561e-5	-7.665e-6
0.276	3.470e-5	-7.671e-6
0.304	3.371e-5	-7.670e-6
0.332	3.296e-5	-7.669e-6
0.360	3.219e-5	-7.662e-6
0.388	3.165e-5	-7.660e-6
0.416	3.116e-5	-7.661e-6
0.444	3.095e-5	-7.661e-6
0.472	3.089e-5	-7.667e-6
0.500	3.125e-5	-7.661e-6
0.528	3.194e-5	-7.668e-6
0.556	3.317e-5	-7.673e-6
0.584	3.471e-5	-7.673e-6
0.612	3.681e-5	-7.675e-6
0.640	3.932e-5	-7.677e-6
0.668	4.236e-5	-7.676e-6
0.696	4.540e-5	-7.685e-6
0.724	4.901e-5	-7.691e-6
0.752	5.290e-5	-7.678e-6
0.780	5.751e-5	-7.689e-6
0.808	6.284e-5	-7.693e-6
0.836	6.940e-5	-7.689e-6
0.864	7.706e-5	-7.664e-6
0.892	8.673e-5	-7.672e-6
0.880	3.389e-5	-7.687e-6
0.852	1.674e-5	-7.700e-6
0.824	7.814e-6	-7.690e-6
0.796	2.028e-6	-7.688e-6
0.768	-1.683e-6	-7.692e-6
0.740	-4.227e-6	-7.682e-6
0.712	-6.223e-6	-7.675e-6
0.684	-7.730e-6	-7.685e-6
0.656	-8.701e-6	-7.721e-6
0.628	-9.522e-6	-7.765e-6
0.600	-1.011e-5	-7.761e-6
0.572	-1.072e-5	-7.767e-6
0.544	-1.115e-5	-7.770e-6
0.516	-1.167e-5	-7.769e-6
0.488	-1.210e-5	-7.773e-6
0.460	-1.265e-5	-7.768e-6
0.432	-1.301e-5	-7.765e-6
0.404	-1.354e-5	-7.765e-6
0.376	-1.389e-5	-7.760e-6
0.348	-1.422e-5	-7.766e-6
0.320	-1.450e-5	-7.770e-6
0.292	-1.494e-5	-7.758e-6
0.264	-1.537e-5	-7.759e-6
0.236	-1.593e-5	-7.750e-6
0.208	-1.643e-5	-7.755e-6
0.180	-1.712e-5	-7.751e-6
0.152	-1.772e-5	-7.745e-6
0.124	-1.841e-5	-7.750e-6
0.096	-1.911e-5	-7.753e-6
0.068	-1.983e-5	-7.753e-6
0.040	-2.049e-5	-7.748e-6
0.012	-2.099e-5	-7.743e-6
-0.016	-2.124e-5	-7.751e-6
-0.044	-2.114e-5	-7.760e-6
-0.072	-2.069e-5	-7.768e-6
-0.100	-2.015e-5	-7.760e-6
-0.128	-1.961e-5	-7.760e-6
-0.156	-1.946e-5	-7.762e-6
-0.184	-1.998e-5	-7.753e-6
-0.212	-2.174e-5	-7.754e-6
-0.240	-2.458e-5	-7.744e-6
-0.268	-2.902e-5	-7.760e-6
-0.296	-3.484e-5	-7.746e-6
-0.324	-4.233e-5	-7.738e-6
-0.352	-5.147e-5	-7.752e-6
-0.380	-6.235e-5	-7.739e-6
-0.408	-7.436e-5	-7.744e-6
-0.436	-8.721e-5	-7.725e-6
-0.464	-9.914e-5	-7.748e-6
-0.492	-1.091e-4	-7.755e-6
-0.520	-1.163e-4	-7.749e-6
-0.548	-1.210e-4	-7.729e-6
-0.576	-1.236e-4	-7.730e-6
-0.596	-1.077e-4	-7.730e-6
-0.568	-6.945e-5	-7.732e-6
-0.540	-4.876e-5	-7.745e-6
-0.512	-3.420e-5	-7.742e-6
-0.484	-2.298e-5	-7.731e-6
-0.456	-1.379e-5	-7.753e-6
-0.428	-6.309e-6	-7.666e-6
-0.400	2.108e-7	-7.673e-6
-0.372	5.604e-6	-7.678e-6
-0.344	1.027e-5	-7.689e-6
-0.316	1.399e-5	-7.681e-6
-0.288	1.695e-5	-7.678e-6
-0.260	1.942e-5	-7.692e-6
-0.232	2.113e-5	-7.680e-6
-0.204	2.258e-5	-7.686e-6
-0.176	2.359e-5	-7.699e-6
-0.148	2.448e-5	-7.692e-6
-0.120	2.501e-5	-7.695e-6
-0.092	2.547e-5	-7.701e-6
-0.064	2.583e-5	-7.695e-6
-0.036	2.623e-5	-7.694e-6
-0.008	2.671e-5	-7.688e-6
0.020	2.757e-5	-7.686e-6
0.048	2.898e-5	-7.693e-6
0.076	3.128e-5	-7.658e-6
0.104	3.440e-5	-7.668e-6
0.132	3.800e-5	-7.680e-6
0.160	4.164e-5	-7.671e-6
0.188	4.326e-5	-7.686e-6
0.216	3.889e-5	-7.672e-6
0.244	3.567e-5	-7.677e-6
0.272	3.428e-5	-7.671e-6
0.300	3.361e-5	-7.662e-6
0.328	3.262e-5	-7.671e-6
0.356	3.184e-5	-7.661e-6
0.384	3.117e-5	-7.666e-6
0.412	3.085e-5	-7.667e-6
0.440	3.048e-5	-7.689e-6
0.468	3.054e-5	-7.682e-6
0.496	3.078e-5	-7.679e-6
0.524	3.148e-5	-7.669e-6
0.552	3.253e-5	-7.668e-6
0.580	3.418e-5	-7.675e-6
0.608	3.613e-5	-7.675e-6
0.636	3.873e-5	-7.684e-6
0.664	4.150e-5	-7.685e-6
0.692	4.465e-5	-7.699e-6
0.720	4.807e-5	-7.699e-6
0.748	5.197e-5	-7.687e-6
0.776	5.624e-5	-7.685e-6
0.804	6.131e-5	-7.693e-6
0.832	6.722e-5	-7.709e-6
0.860	7.436e-5	-7.670e-6
0.888	8.317e-5	-7.679e-6
0.884	3.712e-5	-7.687e-6
0.856	1.855e-5	-7.691e-6
0.828	8.982e-6	-7.696e-6
0.800	2.990e-6	-7.690e-6
0.772	-1.091e-6	-7.686e-6
0.744	-3.932e-6	-7.684e-6
0.716	-5.990e-6	-7.686e-6
0.688	-7.305e-6	-7.675e-6
0.660	-8.399e-6	-7.685e-6
0.632	-9.162e-6	-7.753e-6
0.604	-9.979e-6	-7.773e-6
0.576	-1.051e-5	-7.785e-6
0.548	-1.106e-5	-7.775e-6
0.520	-1.146e-5	-7.769e-6
0.492	-1.196e-5	-7.781e-6
0.464	-1.239e-5	-7.768e-6
0.436	-1.287e-5	-7.769e-6
0.408	-1.336e-5	-7.769e-6
0.380	-1.377e-5	-7.764e-6
0.352	-1.411e-5	-7.773e-6
0.324	-1.445e-5	-7.764e-6
0.296	-1.478e-5	-7.769e-6
0.268	-1.525e-5	-7.762e-6
0.240	-1.576e-5	-7.762e-6
0.212	-1.634e-5	-7.765e-6
0.184	-1.694e-5	-7.760e-6
0.156	-1.758e-5	-7.747e-6
0.128	-1.822e-5	-7.751e-6
0.100	-1.903e-5	-7.755e-6
0.072	-1.967e-5	-7.752e-6
0.044	-2.036e-5	-7.752e-6
0.016	-2.079e-5	-7.751e-6
-0.012	-2.121e-5	-7.751e-6
-0.040	-2.113e-5	-7.758e-6
-0.068	-2.075e-5	-7.766e-6
-0.096	-2.010e-5	-7.767e-6
-0.124	-1.948e-5	-7.770e-6
-0.152	-1.902e-5	-7.764e-6
-0.180	-1.921e-5	-7.764e-6
-0.208	-2.029e-5	-7.758e-6
-0.236	-2.268e-5	-7.751e-6
-0.264	-2.633e-5	-7.747e-6
-0.292	-3.172e-5	-7.749e-6
-0.320	-3.876e-5	-7.753e-6
-0.348	-4.770e-5	-7.738e-6
-0.376	-5.817e-5	-7.754e-6
-0.404	-6.987e-5	-7.749e-6
-0.432	-8.204e-5	-7.729e-6
-0.460	-9.336e-5	-7.771e-6
-0.488	-1.025e-4	-7.759e-6
-0.516	-1.090e-4	-7.759e-6
-0.544	-1.132e-4	-7.743e-6
-0.572	-1.159e-4	-7.733e-6
-0.599	-1.177e-4	-7.746e-6